File: Saved Copy Of Datasets/Materials 1645501 DataSheetold.csv
Ref,Eff Water Cement Ratio,Aggregate Cement Ratio,RCA %,Nominal Maximum RCA Size,Nominal Max NA Size,Density RCA,Density NA,Water Absorption RCA,Water Absorption NA,Compressive Strength (Mpa),Flexural Strength (Mpa)
[1],0.5,2.6,0,20,20,0,0,0,0,42.8,0
,0.5,2.5,20,20,20,0,0,0,0,42.7,0
,0.5,2.5,50,20,20,0,0,0,0,41.3,0
,0.5,2.3,100,20,20,0,0,0,0,41.8,0
[2],0.45,3.3,0,20,30,0,2610,0,2.5,51.2,5.2
,0.45,3.3,30,20,30,2400,2610,4.9,2.5,50.6,5.2
,0.45,3.3,50,20,30,2400,2610,4.9,2.5,50.8,4.9
,0.45,3.3,100,20,30,2400,0,4.9,0,50.2,5
,0.39,2.6,0,20,30,0,2610,0,2.5,60.3,6
,0.39,2.6,30,20,30,2400,2610,4.9,2.5,60.8,6.1
,0.39,2.6,50,20,30,2400,2610,4.9,2.5,61.2,6.1
,0.39,2.6,100,20,30,2400,0,4.9,0,60.2,6
,0.29,2.2,0,20,30,0,2610,0,2.5,70.5,7
,0.29,2.2,30,20,30,2400,2610,4.9,2.5,70.2,6.9
,0.29,2.2,50,20,30,2400,2610,4.9,2.5,70.8,7
,0.29,2.2,100,20,30,2400,0,4.9,0,70,7.2
[3],0.36,2.4,0,16,16,0,0,0,0,48.4,0
,0.36,2.3,100,16,16,0,0,0,0,44.5,0
,0.36,2.2,100,16,16,0,0,0,0,38.7,0
,0.36,2.4,0,16,16,0,0,0,0,48.9,0
,0.36,2.3,100,16,16,0,0,0,0,46.1,0
,0.36,2.2,100,16,16,0,0,0,0,42.4,0
,0.36,2.4,0,16,16,0,0,0,0,48.9,0
,0.36,2.3,100,16,16,0,0,0,0,52.5,0
,0.36,2.2,100,16,16,0,0,0,0,50.7,0
,0.36,2.4,0,16,16,0,0,0,0,48.9,0
,0.36,2.3,100,16,16,0,0,0,0,45.2,0
,0.36,2.2,100,16,16,0,0,0,0,42,0
,0.36,2.4,0,16,16,0,0,0,0,48.9,0
,0.36,2.3,100,16,16,0,0,0,0,49.6,0
,0.36,2.2,100,16,16,0,0,0,0,45.1,0
,0.36,2.7,0,16,16,0,0,0,0,52.3,0
,0.36,2.4,100,16,16,0,0,0,0,54.4,0
,0.36,2.3,100,16,16,0,0,0,0,48.2,0
[4],0.47,2.5,0,20,20,0,2590,0,0.9,39,0
,0.47,2.5,15,20,20,2410,2590,5.8,0.9,38.1,0
,0.45,2.5,30,20,20,2410,2590,5.8,0.9,37,0
,0.42,2.4,60,20,20,2410,2590,5.8,0.9,35.8,0
,0.38,2.3,100,20,20,2410,0,5.8,0,34.5,0
[5],0.6,4.6,0,15,20,0,2670,0,0.5,43.5,0
,0.6,4.1,100,15,20,2450,0,5.6,0,38.2,0
,0.45,3.3,0,15,20,0,2670,0,0.5,61.7,0
,0.45,2.9,100,15,20,2450,0,5.6,0,52.8,0
,0.35,2.6,0,15,20,0,2670,0,0.5,74.4,0
,0.35,2.3,100,15,20,2450,0,5.6,0,62.8,0
,0.45,3.2,25,15,20,0,2670,0,0.5,60.7,0
,0.45,3.1,50,15,20,2450,0,5.6,0,59.4,0
[6],0.57,3.1,0,20,25,0,2620,0,1.3,48.3,0
,0.57,3.1,20,20,25,2330,2620,6.3,1.3,44.9,0
,0.57,3.1,50,20,32,2330,2620,6.3,1.3,44.7,0
,0.57,3,100,20,32,2330,0,6.3,0,46.8,0
,0.57,3,0,20,32,0,2620,0,1.3,40.2,0
,0.57,3.1,20,20,32,2330,2620,6.3,1.3,43.2,0
,0.57,2.9,50,20,32,2330,2620,6.3,1.3,39.7,0
,0.57,2.9,100,20,32,2330,0,6.3,0,43.3,0
,0.57,3,0,20,20,0,2620,0,1.3,46,0
,0.57,2.8,20,20,20,2330,2620,6.3,1.3,43,0
,0.57,2.7,50,20,20,2330,2620,6.3,1.3,38.1,0
,0.57,2.9,100,20,20,2330,0,6.3,0,39.1,0
[7],0.5,2.4,100,25,20,0,0,0,0,30.2,0
,0.5,2.3,100,25,20,0,0,0,0,36.2,0
,0.7,3.3,100,25,20,0,0,0,0,27.7,0
,0.7,3.2,100,25,20,0,0,0,0,20.4,0
[8],0.43,3,0,32,19,0,2820,0,0.4,35.9,0
,0.43,2.9,33,32,19,2520,2820,9.3,0.4,34.1,0
,0.43,2.8,53,32,19,2520,2820,9.3,0.4,29.6,0
,0.43,2.8,72,32,19,2520,2820,9.3,0.4,30.3,0
,0.43,2.7,100,32,19,2520,0,9.3,0,26.7,0
[9],0.42,3,0,32,32,0,2786,0,0.3,36.8,5
,0.37,2.9,30,32,32,2442,2786,6,0.3,37.2,5
,0.34,2.8,50,32,32,2442,2786,6,0.3,37.8,5.2
,0.38,2,70,32,32,2442,2786,6,0.3,36.7,5.1
,0.27,2.7,100,32,32,2442,0,6,0,35.2,4.9
[10],0.55,4,0,25,19,0,2670,0,0.9,42,0
,0.55,3.9,25,25,19,2430,2670,4.4,0.9,42,0
,0.52,3.6,50,25,19,2430,2670,4.4,0.9,41,0
,0.5,3.5,100,25,19,2430,0,4.4,0,40,0
[11],0.55,4,0,25,19,0,2670,0,0.9,35.5,0
,0.55,3.9,25,25,19,2430,2670,4.5,0.9,38.8,0
,0.52,3.6,50,25,19,2430,2670,4.5,0.9,39.4,0
,0.5,3.5,100,25,19,2430,0,4.5,0,38.3,0
[12],0.41,3.1,0,20,25,0,2564,0,0.8,59.4,0
,0.42,3.2,10,20,25,2165,2564,6.8,0.8,62.2,0
,0.43,3.4,20,20,25,2165,2564,6.8,0.8,58.4,0
,0.44,3.5,30,20,25,2165,2564,6.8,0.8,61.3,0
,0.45,3.7,50,20,25,2165,2564,6.8,0.8,60.8,0
,0.45,4.4,100,20,25,2165,0,6.8,0,61,0
[13],0.51,2.6,0,20,20,0,2620,0,1.1,48.6,0
,0.49,2.5,20,20,20,2570,2620,3.5,1.1,45.3,0
,0.48,2.5,50,20,20,2570,2620,3.5,1.1,42.5,0
,0.46,2.5,80,20,20,2570,2620,3.5,1.1,39.2,0
,0.45,2.5,100,20,20,2570,0,3.5,0,37.1,0
[14],0.49,4.7,0,16,20,2270,0,0,0,37.7,0
,0.49,3.9,100,16,20,2270,0,0,0,34.6,0
,0.36,2.4,0,16,20,2270,0,0,0,57.9,0
,0.36,2.2,100,16,20,2270,0,0,0,56.4,0
,0.49,3.7,0,16,25,2780,0,0,0,39.8,0
,0.49,4.4,100,16,25,2780,0,0,0,40.1,0
,0.36,2.4,0,16,25,2780,0,0,0,58.3,0
,0.36,2.3,100,16,25,2780,0,0,0,60.2,0
,0.49,5.1,0,16,16,2565,0,0,0,40.1,0
,0.49,4.2,100,16,16,2565,0,0,0,35.3,0
,0.36,2.7,0,16,16,2565,0,0,0,61.8,0
,0.36,2.4,100,16,16,2565,0,0,0,57.5,0
[15],0.47,3.3,0,32,22,0,2788,0,0.3,31.2,4.6
,0.41,3.3,30,32,22,2449,2788,6,0.3,31,4.6
,0.38,3.2,50,32,22,2449,2788,6,0.3,29.3,4.4
,0.36,3.1,70,32,22,2449,2788,6,0.3,28.4,4.4
,0.32,3,100,32,22,2449,0,6,0,27.2,4.2
[16],0.45,2.8,0,20,19,0,2620,0,1.1,66.8,0
,0.45,2.8,20,20,19,2570,2620,3.5,1.1,62.4,0
,0.45,2.7,50,20,19,2570,2620,3.5,1.1,55.8,0
,0.45,2.7,100,20,32,2570,0,3.5,0,42,0
,0.55,2.6,0,20,32,0,2620,0,1.1,48.6,0
,0.55,2.5,20,20,32,2570,2620,3.5,1.1,45.3,0
,0.55,2.5,50,20,32,2570,2620,3.5,1.1,42.5,0
,0.55,2.5,100,20,32,2570,0,3.5,0,38.1,0
[17],0.65,3.1,0,19,25,0,2860,0,0.7,21.8,0
,0.65,3.1,100,19,25,2390,0,4.4,0,22.1,0
,0.5,2.9,0,19,25,0,2860,0,0.7,26.7,0
,0.5,2.9,100,19,25,2390,0,4.4,0,25.1,0
,0.48,2.8,0,19,25,0,2860,0,0.7,28.9,0
,0.48,2.8,100,19,25,2390,0,4.4,0,27.2,0
,0.43,2.6,0,19,25,0,2860,0,0.7,31.1,0
,0.43,2.6,100,19,25,2390,0,4.4,0,28.7,0
,0.4,2.4,0,19,19,0,2860,0,0.7,33.7,0
,0.4,2.4,100,19,19,2390,0,4.4,0,29.5,0
[18],0.54,3.1,0,32,25,0,2840,0,0.4,26.8,0
,0.35,3.1,100,32,25,2512,0,6.3,0,24.6,0
,0.49,3.1,100,32,25,2670,0,1.8,0,26.9,0
,0.46,2.7,0,32,25,0,2840,0,0.4,34.3,0
,0.31,2.7,100,32,32,2512,0,6.3,0,30.2,0
,0.43,2.7,100,32,32,2670,0,1.8,0,34.2,0
,0.42,2.4,0,32,32,0,2840,0,0.4,38.6,0
,0.28,2.4,100,32,32,2512,0,6.3,0,35.5,0
,0.39,2.4,100,32,32,2670,0,1.8,0,38.4,0
[19],0.7,4.1,0,30,10,0,2700,0,0.5,18.1,0
,0.67,3.9,100,30,10,2520,0,3.8,0,18,0
,0.67,3.9,100,30,10,2510,0,3.9,0,15.4,0
,0.35,3.1,0,30,10,0,2700,0,0.5,37.5,0
,0.35,4.3,100,30,10,2520,0,3.8,0,36.4,0
,0.36,2.1,100,30,10,2510,0,3.9,0,35.7,0
,0.34,2.1,0,30,19,0,2700,0,0.5,48.4,0
,0.34,1.9,100,30,19,2520,0,3.8,0,44.4,0
,0.34,2.2,100,30,30,2510,0,3.9,0,43.8,0
[20],0.47,3.3,0,32,22,0,2788,0,0.3,31.2,4.6
,0.41,3.3,30,32,22,2449,2788,6,0.3,31,4.6
,0.38,3.2,50,32,22,2449,2788,6,0.3,29.3,4.4
,0.36,3.1,70,32,22,2449,2788,6,0.3,28.4,4.4
,0.32,3,100,32,25,2449,0,6,0,27.2,4.2
[21],0.55,2.6,0,20,20,0,2620,0,1.1,48.6,0
,0.55,2.6,20,20,20,2580,2620,3.5,1.1,45.3,0
,0.55,2.5,50,20,20,2580,2620,3.5,1.1,42.5,0
,0.55,2.5,100,20,20,2580,0,3.5,0,38.1,0
,0.5,2.6,0,20,20,0,2620,0,1.1,54.1,0
,0.5,2.6,20,20,20,2580,2620,3.5,1.1,51.7,0
,0.5,2.6,50,20,20,2580,2620,3.5,1.1,47.1,0
,0.5,2.6,100,20,20,2580,0,3.5,0,43.4,0
,0.45,2.8,0,20,20,0,2620,0,1.1,66.8,0
,0.45,2.8,20,20,20,2580,2620,3.5,1.1,62.4,0
,0.45,2.7,50,20,20,2580,2620,3.5,1.1,56.8,0
,0.45,2.5,100,20,20,2580,0,3.5,0,52.1,0
,0.4,2.9,0,20,20,0,2620,0,1.1,72.3,0
,0.4,2.8,20,20,20,2580,2620,3.5,1.1,69.6,0
,0.4,2.8,50,20,20,2580,2620,3.5,1.1,65.3,0
,0.4,2.8,100,20,20,2580,0,3.5,0,58.5,0
[22],0.5,2.9,0,25,20,0,2600,0,1.4,39.5,4
,0.5,2.9,30,25,20,2530,2600,1.9,1.4,36.7,4
,0.5,2.9,50,25,20,2530,2600,1.9,1.4,38,3.7
,0.5,2.8,100,25,32,2530,0,1.9,0,36,3.5
,0.5,2.8,30,25,32,0,2600,0,1.4,32.6,3.6
,0.5,2.8,50,25,32,2400,2600,6.2,1.4,30.4,3.4
,0.5,2.7,100,25,32,2400,0,6.2,0,29.5,3.2
[23],0.58,3.2,0,32,32,0,2970,0,0.8,44.6,0
,0.52,3.2,50,32,22,2720,2970,4.8,0.8,41.4,0
,0.45,3.2,100,32,22,2720,0,4.8,0,40.7,0
,0.52,3.2,50,32,22,2650,2970,4.6,0.8,38.3,0
,0.46,3.2,100,32,22,2650,0,4.6,0,36.6,0
,0.52,3.2,50,32,22,2880,2970,4.4,0.8,41.2,0
,0.47,3.2,100,32,22,2880,0,4.4,0,40.3,0
[24],0.41,2.6,0,20,20,0,2647,0,1,42.3,0
,0.39,2.5,20,20,20,2338,2647,5.2,1,47.4,0
,0.36,2.5,50,20,20,2338,2647,5.2,1,47.3,0
,0.32,2.3,100,20,20,2338,0,5.2,0,54.8,0
[25],0.52,2.9,0,22,20,0,0,0,0,48,0
,0.52,2.9,10,22,20,0,0,0,0,46.9,0
,0.52,2.8,20,22,20,0,0,0,0,47.7,0
,0.52,2.8,30,22,20,0,0,0,0,50.8,0
,0.52,2.8,40,22,20,0,0,0,0,48,0
,0.52,2.8,50,22,25,0,0,0,0,49.5,0
,0.52,2.7,100,22,25,0,0,0,0,50.3,0
,0.54,3.2,0,22,25,0,0,0,0,23.5,3.1
,0.54,3.1,25,22,25,0,0,0,0,21.6,2.9
,0.54,3.1,100,22,20,0,0,0,0,20.5,3.1
[26],0.76,4.5,100,30,32,0,0,0,0,21.1,0
,0.76,4.5,100,30,32,0,0,0,0,22,0
,0.76,4.5,100,30,32,0,0,0,0,23.1,0
,0.76,4.5,100,30,32,0,0,0,0,23.5,0
,0.76,4.5,100,30,32,0,0,0,0,20.4,0
,0.76,4.5,100,30,32,0,0,0,0,18.9,0
,0.76,4.5,100,30,32,0,0,0,0,21.2,0
,0.66,3.9,100,30,32,0,0,0,0,25.7,0
,0.66,3.9,100,30,32,0,0,0,0,28,0
,0.66,3.9,100,30,32,0,0,0,0,25.1,0
,0.66,3.9,100,30,32,0,0,0,0,27.5,0
,0.66,3.9,100,30,32,0,0,0,0,26.1,0
,0.66,3.9,100,30,32,0,0,0,0,27.4,0
,0.66,3.9,100,30,32,0,0,0,0,27.7,0
,0.66,3.9,100,30,32,0,0,0,0,25,0
,0.57,3.3,100,30,32,0,0,0,0,30.5,0
,0.57,3.3,100,30,30,0,0,0,0,32.7,0
,0.57,3.3,100,30,30,0,0,0,0,32.8,0
,0.57,3.3,100,30,30,0,0,0,0,33.1,0
,0.48,2.7,100,30,30,0,0,0,0,35.3,0
,0.48,2.7,100,30,30,0,0,0,0,35.2,0
,0.48,2.7,100,30,30,0,0,0,0,32.5,0
,0.48,2.7,100,30,30,0,0,0,0,33.8,0
,0.41,2.2,100,30,30,0,0,0,0,41.9,0
,0.41,2.2,100,30,30,0,0,0,0,38.4,0
,0.41,2.2,100,30,30,0,0,0,0,38.7,0
,0.41,2.2,100,30,30,0,0,0,0,41.2,0
[27],0.54,3.1,0,32,32,0,2840,0,0.4,26.8,4.2
,0.35,3.1,100,32,32,2512,0,6.3,0,24.6,4.2
,0.49,3.1,100,32,32,2670,0,1.8,0,26.9,4.2
,0.46,3.3,0,32,32,0,2840,0,0.4,34.3,4.8
,0.27,3.3,100,32,32,2512,0,6.3,0,30.2,4.7
,0.41,3.3,100,32,32,2670,0,1.8,0,34.2,4.8
,0.42,3,0,32,32,0,2840,0,0.4,38.6,5.1
,0.24,3,100,32,32,2512,0,6.3,0,35.5,5
,0.38,3,100,32,32,2670,0,1.8,0,38.4,5.1
[28],0.4,3.1,50,12,30,2420,2570,6.8,3,43.3,0
,0.45,3.1,50,12,30,2400,2570,6.8,3,39.6,0
,0.5,3.2,50,12,30,2400,2570,6.8,3,38.1,0
,0.55,3.2,50,12,30,2400,2570,6.8,3,34.5,0
,0.6,3.3,50,12,30,2400,2570,6.8,3,31.6,0
,0.4,3.1,50,22,30,2420,2570,8.8,3,46.1,0
,0.45,3.1,50,22,30,2420,2570,8.8,3,45.8,0
,0.5,3.2,50,22,30,2420,2570,8.8,3,39.9,0
,0.55,3.3,50,22,20,2420,2570,8.8,3,36.3,0
,0.6,3.3,50,22,20,2420,2570,8.8,3,34.7,0
[29],0.5,3.5,0,20,20,0,2870,0,0,28.3,4.9
,0.5,3.5,20,20,20,2400,2870,0,0,27.2,3.9
,0.5,3.5,40,20,20,2400,2870,0,0,26.5,2.9
,0.5,3.5,60,20,20,2400,2870,0,0,25.4,2.7
,0.5,3.5,80,20,20,2400,2870,0,0,25.1,2.6
,0.5,3.5,100,20,20,2400,0,0,0,20.4,2.4
,0.5,3.8,20,20,20,2630,2870,0,0,26.4,4.4
,0.5,4.1,40,20,20,2630,2870,0,0,25.9,4.1
,0.5,4.5,60,20,20,2630,2870,0,0,23.5,3.8
,0.5,4.8,80,20,20,2630,2870,0,0,15.4,3.4
[30],0.51,3.6,0,32,20,0,2671,0,0.3,43.4,5.4
,0.57,3.6,50,32,20,2489,2671,2.4,0.3,45.2,5.7
,0.62,3.6,100,32,20,2489,0,2.4,0,45.7,5.2
[31],0.65,3.3,0,19,20,0,2720,0,0.2,20.2,0
,0.65,3.2,25,19,20,2440,2720,5.8,0.2,18.5,0
,0.65,3.1,50,19,20,2440,2720,5.8,0.2,18,0
,0.65,3.1,75,19,20,2440,2720,5.8,0.2,16.5,0
,0.42,2.7,0,19,20,0,2720,0,0.2,40,0
,0.42,2.7,25,19,20,2440,2720,5.8,0.2,33,0
,0.42,2.6,50,19,20,2440,2720,5.8,0.2,34.5,0
,0.42,2.5,75,19,20,2440,2720,5.8,0.2,34,0
[32],0.65,3.4,0,16,20,0,2730,0,2.5,31.9,0
,0.66,3.3,20,16,20,2400,2730,5,2.5,31.7,0
,0.68,3.1,50,16,20,2400,2730,5,2.5,32.4,0
,0.68,2.8,100,16,20,2400,0,5,0,30.1,0
,0.5,2.6,0,16,20,0,2730,0,2.5,44.8,0
,0.51,2.5,20,16,20,2400,2730,5,2.5,43.7,0
,0.53,2.3,50,16,20,2400,2730,5,2.5,37.5,0
,0.56,2.1,100,16,20,2400,0,5,0,40.5,0
[33],0.45,1.9,0,19,25,2420,0,5.4,0.9,35.2,0
,0.45,3.4,64,19,25,2420,2740,5.4,0.9,41.4,0
,0.45,2.3,100,19,25,2420,2740,5.4,0,43.9,0
,0.45,2.1,0,19,25,2500,0,3.3,0.9,34.1,0
,0.45,3.1,64,19,25,2500,2740,3.3,0.9,44.8,0
,0.45,2.5,100,19,25,2500,2740,3.3,0,45.9,0
[34],0.65,3.4,0,16,20,0,2720,0,2,31.9,0
,0.65,3.3,20,16,20,2400,2720,5,2,31.7,0
,0.65,3.1,50,16,20,2400,2720,5,2,32.4,0
,0.65,2.8,100,16,20,2400,0,5,0,30.1,0
,0.5,2.6,0,16,20,0,2720,0,2,44.8,0
,0.5,2.5,20,16,20,2400,2720,5,2,43.7,0
,0.5,2.8,50,16,20,2400,2720,5,2,37.5,0
,0.5,2.1,100,16,20,2400,0,5,0,40.5,0
[35],0.43,3.1,0,20,20,0,2620,0,1.1,51.8,5.2
,0.43,3,25,20,20,2661,2620,1.9,1.1,47,4.2
,0.43,2.9,50,20,20,2602,2620,2.6,1.1,46,4.4
,0.43,2.8,100,20,20,2510,0,3.9,0,42.5,5
[36],0.45,2.3,0,19,25,0,2730,0,0.45,44.4,0
,0.45,2.3,100,19,25,2490,0,4.8,0,41,0
,0.55,2.9,0,19,25,0,2730,0,0.45,36.7,0
,0.55,2.9,100,19,25,2490,0,4.8,0,33.3,0
,0.65,3.5,0,19,25,0,2730,0,0.45,30.4,0
,0.65,3.5,100,19,25,2490,0,4.8,0,24.8,0
[37],0.6,4.6,0,19,20,0,0,0,0,25,0
,0.6,4.6,25,19,20,0,0,0,0,26.7,0
,0.6,4.5,50,19,20,0,0,0,0,21.5,0
,0.6,4.5,75,19,20,0,0,0,0,21.4,0
,0.6,4.4,100,19,20,0,0,0,0,20,0
,0.45,2.6,0,19,20,0,0,0,0,39.5,0
,0.45,2.6,25,19,20,0,0,0,0,38.3,0
,0.45,2.5,50,19,20,0,0,0,0,37,0
,0.45,2.5,75,19,19,0,0,0,0,35,0
,0.45,2.5,100,19,19,0,0,0,0,33.3,0
[38],0.49,3.1,0,25,16,0,2710,0,0.8,44.3,0
,0.37,3,100,25,16,2490,0,2.9,0,37.6,0
,0.43,3,100,25,16,2570,0,2.9,0,43.3,0
,0.36,2.9,100,25,16,2440,0,5.6,0,42.6,0
,0.36,2.9,100,25,16,2470,0,5.3,0,44.7,0
[39],0.53,6.5,0,32,15,0,2650,0,0.2,39.3,4.4
,0.43,5.4,100,32,15,2263,0,6,0,33.2,4.3
,0.49,5.1,100,32,15,2283,0,4.2,0,35.6,4.8
,0.53,5.1,100,32,15,2292,0,4.3,0,34.6,5
,0.6,5.3,100,32,15,2301,0,5,0,37.3,5.1
,0.54,6.4,90,32,15,2609,2650,1.5,0.2,45.4,4.4
,0.46,5.9,60,32,15,2518,2650,2.7,0.2,54.3,5.9
,0.44,5.8,60,32,15,2584,2650,1.6,0.2,54.4,6.4
,0.45,6.4,25,32,32,2594,2650,1.6,0.2,53.4,6
[40],0.43,3,0,32,25,0,0,0,0,34.8,0
,0.47,2.9,30,32,32,0,0,0,0,31.9,0
,0.49,2.8,50,32,32,0,0,0,0,30.6,0
,0.54,2.7,100,32,32,0,0,0,0,29.7,0
[41],0.66,4.6,0,20,22,0,2510,0,1.4,21,0
,0.66,4.6,30,20,22,2340,2510,5.3,1.4,20,0
,0.61,4.3,50,20,22,2340,2510,5.3,1.4,19,0
,0.58,4,100,20,22,2340,0,5.3,0,18,0
,0.55,3.8,0,20,22,0,2510,0,1.4,21,0
,0.55,3.8,30,20,22,2340,2510,5.3,1.4,23,0
,0.51,3.5,50,20,22,2340,2510,5.3,1.4,24,0
,0.48,3.4,100,20,22,2340,0,5.3,0,21,0
,0.5,3.5,0,20,22,0,2510,0,1.4,31,0
,0.5,3.5,30,20,22,2340,2510,5.3,1.4,25,0
,0.47,3.2,50,20,22,2340,2510,5.3,1.4,29,0
,0.44,3,100,20,22,2340,0,5.3,0,30,0
,0.48,3.3,0,20,22,0,2510,0,1.4,33,0
,0.48,3.3,30,20,12,2340,2510,5.3,1.4,39,0
,0.44,3.1,50,20,22,2340,2510,5.3,1.4,31,0
,0.42,2.9,100,20,22,2340,0,5.3,0,34,0
[42],0.6,4.3,0,32,20,0,2381,0,0,36.6,0
,0.6,3.8,100,32,20,2264,0,2,0,33.6,0
,0.52,3.6,0,32,20,0,2389,0,0,41.8,0
,0.52,3.2,100,32,25,2276,0,2,0,41.1,0
,0.47,3,0,32,25,0,2387,0,0,48.6,0
,0.47,2.7,100,32,25,2273,0,2,0,48.1,0
[43],0.6,3,0,12,20,0,2720,0,0.6,39.5,0
,0.59,3.2,10,12,20,2010,2720,10.9,0.6,40,0
,0.57,3.5,30,12,20,2010,2720,10.9,0.6,38.6,0
,0.54,3.8,50,12,20,2010,2720,10.9,0.6,37.6,0
,0.46,4.6,100,12,20,2010,0,10.9,0,38.6,0
,0.45,3.2,0,12,20,0,2720,0,0.6,53.3,0
,0.44,3.3,10,12,20,2010,2720,10.9,0.6,53.7,0
,0.42,3.7,30,12,20,2010,2720,10.9,0.6,51,0
,0.67,4,50,12,20,2010,2720,10.9,0.6,47.8,0
,0.68,4.8,100,12,20,2010,0,10.9,0,45.1,0
,0.67,3.3,0,12,20,0,2720,0,0.6,65.2,0
,0.7,3.4,10,12,20,2010,2720,10.9,0.6,64.6,0
,0.53,3.8,30,12,20,2010,2720,10.9,0.6,65.4,0
,0.53,4.1,50,12,20,2010,2720,10.9,0.6,63.2,0
,0.53,5,100,12,20,2010,0,10.9,0,63,0
[44],0.54,3,0,20,22,0,2581,0,1.2,49.8,0
,0.54,3,20,20,22,2451,2581,7.3,1.2,50.5,0
,0.54,3,50,20,22,2451,2581,7.3,1.2,48.1,0
,0.54,2.9,100,20,22,2451,0,7.3,0,45.2,0
,0.45,3.1,0,20,22,0,2581,0,1.2,59.7,0
,0.45,3.1,20,20,22,2451,2581,7.3,1.2,64.7,0
,0.45,3.1,50,20,22,2451,2581,7.3,1.2,55,0
,0.45,3.1,100,20,22,2451,0,7.3,0,53.9,0
,0.4,3.2,0,20,22,0,2581,0,1.2,78.7,0
,0.4,3.2,20,20,22,2451,2581,7.3,1.2,69.9,0
,0.4,3.2,50,20,22,2451,2581,7.3,1.2,63.8,0
,0.4,3.1,100,20,22,2451,0,7.3,0,62.8,0
[45],0.48,4.1,0,10,20,0,2670,0,1.5,38.9,5.8
,0.48,3.5,100,10,20,2360,0,4.7,0,38.6,5.2
,0.39,3.1,100,10,20,2280,0,6.2,0,38.1,5.2
,0.29,2.6,100,10,20,2220,0,7.8,0,39.3,5.2
,0.34,2.3,0,10,20,0,2670,0,1.5,61.9,5.2
,0.31,2.1,100,10,20,2360,0,4.7,0,60.1,5.8
,0.27,1.8,100,10,20,2280,0,6.2,0,60.2,5
,0.19,1.5,100,10,20,2220,0,7.8,0,62.8,4.4
[46],0.52,3,100,25,20,2490,0,4.9,0,37.6,0
,0.52,3,100,25,20,2570,0,2.9,0,43.3,0
,0.52,2.9,100,25,20,2440,0,5.6,0,42.6,0
,0.52,2.9,100,25,32,2470,0,5.3,0,44.7,0
,0.52,3.1,0,25,32,0,2710,0,0.83,44.3,0
,0.58,3.2,0,32,16,0,2970,0,0.8,44.6,0
,0.52,3.2,53,32,16,2720,2970,4.8,0.8,41.4,0
[47],0.58,3.2,100,32,16,2720,0,4.8,0,40.7,0
,0.52,3.2,54,32,25,2650,2970,4.6,0.8,38.3,0
,0.58,3.2,100,32,25,2650,0,4.6,0,36.6,0
,0.52,3.2,53,32,25,2880,2970,4.4,0.8,41.2,0
,0.58,3.2,100,32,25,2880,0,4.4,0,40.3,0
[48],0.41,1.7,15,20,32,2330,2600,4.4,0.7,50.8,0
,0.41,1.7,30,20,32,2330,2600,4.4,0.7,44.9,0
,0.41,1.7,45,20,32,2330,2600,4.4,0.7,44.6,0
,0.41,1.7,60,20,32,2330,2600,4.4,0.7,42.4,0
,0.41,1.7,15,20,32,2370,2600,4,0.7,54,0
,0.41,1.7,30,20,32,2370,2600,4,0.7,56,0
,0.41,1.7,45,20,32,2370,2600,4,0.7,54.4,0
,0.41,1.7,60,20,32,2370,2600,4,0.7,40.6,0
,0.41,1.7,15,20,20,2390,2600,3.6,0.7,55.2,0
,0.41,1.7,30,20,20,2390,2600,3.6,0.7,53.5,0
,0.41,1.7,45,20,20,2390,2600,3.6,0.7,56.9,0
,0.41,1.7,60,20,20,2390,2600,3.6,0.7,54.7,0
,0.41,1.7,15,20,20,2320,2600,4.6,0.7,50.5,0
,0.41,1.7,30,20,20,2320,2600,4.6,0.7,48.9,0
,0.41,1.7,45,20,20,2320,2600,4.6,0.7,45.8,0
,0.41,1.7,60,20,20,2320,2600,4.6,0.7,40,0
,0.41,1.7,15,20,20,2390,2600,3.7,0.7,54.4,0
,0.41,1.7,30,20,20,2390,2600,3.7,0.7,50.2,0
,0.41,1.7,45,20,20,2390,2600,3.7,0.7,49.5,0
,0.41,1.7,60,20,20,2390,2600,3.7,0.7,40.4,0
,0.41,1.7,15,20,20,2390,2600,3.5,0.7,45,0
,0.41,1.7,30,20,20,2390,2600,3.5,0.7,46.9,0
,0.41,1.7,45,20,20,2390,2600,3.5,0.7,51.4,0
,0.41,1.7,60,20,20,2390,2600,3.5,0.7,53.2,0
,0.41,1.7,15,20,20,2380,2600,3.8,0.7,55.3,0
,0.41,1.7,30,20,20,2380,2600,3.8,0.7,55.9,0
,0.41,1.7,45,20,20,2380,2600,3.8,0.7,52.6,0
,0.41,1.7,60,20,20,2380,2600,3.8,0.7,48,0
,0.41,1.7,15,20,20,2380,2600,3.8,0.7,49.1,0
,0.41,1.7,30,20,20,2380,2600,3.8,0.7,49.9,0
,0.41,1.7,45,20,20,2380,2600,3.8,0.7,50.3,0
,0.41,1.7,60,20,20,2380,2600,3.8,0.7,47.5,0
,0.41,1.7,15,20,20,2400,2600,3.5,0.7,43.2,0
,0.41,1.7,30,20,20,2400,2600,3.5,0.7,53.7,0
,0.41,1.7,45,20,20,2400,2600,3.5,0.7,50,0
,0.41,1.7,60,20,20,2400,2600,3.5,0.7,43.3,0
,0.41,1.7,15,20,20,2370,2600,4,0.7,52.9,0
,0.41,1.7,30,20,20,2370,2600,4,0.7,49.9,0
,0.41,1.7,45,20,20,2370,2600,4,0.7,53.7,0
,0.41,1.7,60,20,20,2370,2600,4,0.7,46,0
[49],0.48,5.1,0,25,20,0,2570,0,1.2,41.3,6.4
,0.48,5,27,25,20,2250,2570,7,1.2,51.4,5.8
,0.48,4.9,64,25,20,2250,2570,7,1.2,45.6,4.9
,0.48,5,37,25,20,2250,2570,7,1.2,44.7,4.8
,0.48,5,37,25,20,2250,2570,7,1.2,41.9,5.7
[50],0.5,2.4,100,25,32,2452,0,4.1,0,51,0
,0.5,2.4,100,25,32,2452,0,4.1,0,49,0
,0.5,2.4,100,25,32,2452,0,4.1,0,48,0
,0.5,2.6,0,25,32,2452,2652,4.1,0.8,52,0
,0.5,2.5,50,25,32,2452,2652,4.1,0.8,51,0
,0.5,2.5,50,25,32,2452,2652,4.1,0.8,51,0
,0.5,2.5,50,25,32,2452,2652,4.1,0.8,51,0
,0.5,2.5,25,25,32,2452,2652,4.1,0.8,52,0
,0.5,2.5,25,25,25,2452,2652,4.1,0.8,50,0
,0.5,2.5,25,25,25,2452,2652,4.1,0.8,49,0
[51],0.38,2,0,25,38,0,2630,0,1.2,54.1,7.7
,0.28,2,100,25,38,2260,0,7.5,0,38.3,6.5
,0.28,2,100,25,38,2260,0,7.5,0,32.9,5.9
,0.23,2,100,25,38,2260,0,7.5,0,33.2,5.5
,0.46,2.4,0,25,38,0,2630,0,1.2,42.2,7.1
,0.34,2.4,100,25,38,2260,0,7.5,0,31.3,5.7
,0.34,2.4,100,25,38,2260,0,7.5,0,28.4,5.3
,0.28,2.4,100,25,38,2260,0,7.5,0,28,5.1
,0.58,3.1,0,25,25,0,2630,0,1.2,28.8,5.9
,0.43,3.1,100,25,25,2260,0,7.5,0,26.5,5.5
,0.43,3.1,100,25,25,2260,0,7.5,0,23.3,5.1
,0.35,3.1,100,25,25,2260,0,7.5,0,21.6,4.7
,0.67,3.5,0,25,25,0,2630,0,1.2,23.6,5.2
,0.49,3.5,100,25,25,2260,0,7.5,0,21.6,5.3
,0.49,3.5,100,25,25,2260,0,7.5,0,18,4.8
,0.4,3.5,100,25,25,2260,0,7.5,0,18.8,4.5
,0.8,4.2,0,25,25,0,2630,0,1.2,17.3,4.4
,0.59,4.2,100,25,25,2260,0,7.5,0,16.1,5.2
,0.59,4.2,100,25,25,2260,0,7.5,0,13.4,4
,0.48,4.2,100,25,25,2260,0,7.5,0,13.9,3.9
[52],0.6,3.6,0,20,20,0,2540,0,1.8,38,0
,0,0,0,0,0,0,0,0,0,0,0
,0.59,3.3,20,20,20,2320,2540,5.3,1.8,41,0
,0.57,3.3,50,20,20,2320,2540,5.3,1.8,44,0
,0.54,3,100,20,20,2320,0,5.3,0,45,0
,0.46,2.6,0,20,20,0,2540,0,1.8,51.5,0
,0.45,2.5,20,20,20,2320,2540,5.3,1.8,50.5,0
,0.44,2.5,50,20,20,2320,2540,5.3,1.8,45,0
,0.42,2.3,100,20,20,2320,0,5.3,0,56,0
,0.67,3.6,0,20,19,0,2540,0,1.8,37,0
,0.68,3.4,20,20,19,2320,2540,5.3,1.8,33.5,0
,0.67,3,50,20,19,2320,2540,5.3,1.8,32,0
,0.7,2.3,100,20,19,2320,0,5.3,0,32,0
,0.53,2.7,0,20,19,0,2540,0,1.8,45,0
,0.53,2.5,20,20,19,2320,2540,5.3,1.8,44,0
,0.53,2.2,50,20,19,2320,2540,5.3,1.8,41,0
,0.52,1.8,100,20,19,2320,0,5.3,0,41.5,0
,0.51,3.1,0,20,20,0,2540,0,1.8,46.5,0
,0.52,3.2,20,20,20,2320,2540,5.3,1.8,44,0
,0.54,3,50,20,20,2320,2540,5.3,1.8,41,0
,0.58,2.8,100,20,20,2320,0,5.3,0,33.5,0
,0.42,2.7,0,20,20,0,2540,0,1.8,58,0
,0.42,2.9,20,20,20,2320,2540,5.3,1.8,53.5,0
,0.44,2.7,50,20,20,2320,2540,5.3,1.8,54,0
,0.49,2.5,100,20,20,2320,0,5.3,0,40,0
[53],0.42,2.6,50,20,19,2330,2590,6.1,1.2,41.6,0
,0.51,2.3,100,20,19,2330,0,6.1,0,31.4,0
,0.52,2.6,50,20,19,2330,2590,6.1,1.2,35.5,0
,0.61,2.3,100,20,19,2330,0,6.1,0,26,0
,0.44,2.6,50,20,19,2320,2590,5.8,1.2,44.6,0
,0.51,2.3,100,20,19,2320,0,5.8,0,36.7,0
,0.62,2.3,100,20,19,2320,0,5.8,0,29.5,0
,0.41,2.8,20,20,19,2360,2590,3.9,1.2,46.1,0
,0.42,2.6,50,20,20,2360,2590,3.9,1.2,45.1,0
,0.45,2.3,100,20,20,2360,0,3.9,0,42.9,0
,0.5,2.8,20,20,20,2360,2590,3.9,1.2,39.3,0
,0.52,2.6,50,20,20,2360,2590,3.9,1.2,39.5,0
,0.54,2.3,100,20,20,2360,0,3.9,0,37.7,0
,0.42,2.8,20,20,20,2350,2590,4.5,1.2,48.1,0
,0.43,2.6,50,20,20,2350,2590,4.5,1.2,41,0
,0.4,2.3,100,20,20,2350,0,4.5,0,38.7,0
,0.51,2.8,20,20,20,2350,2590,4.5,1.2,42.7,0
,0.52,2.6,50,20,20,2350,2590,4.5,1.2,35.4,0
,0.5,2.3,100,20,20,2350,0,4.5,0,31.4,0
,0.42,2.8,20,20,20,2350,2590,4.7,1.2,48.5,0
,0.42,2.6,50,20,20,2350,2590,4.7,1.2,45.4,0
,0.43,2.3,100,20,20,2350,0,4.7,0,37,0
,0.52,2.8,20,20,20,2350,2590,4.7,1.2,41.3,0
,0.52,2.6,50,20,20,2350,2590,4.7,1.2,36.8,0
,0.56,2.3,100,20,20,2350,0,4.7,0,31.2,0
[54],0.41,2.6,0,32,20,0,2820,0,0.4,47.2,0
,0.38,2.6,33,32,20,2578,2820,9.3,0.4,42.4,0
,0.36,2.6,53,32,20,2578,2820,9.3,0.4,45.7,0
,0.34,2.6,72,32,20,2578,2820,9.3,0.4,36.7,0
,0.31,2.6,100,32,20,2578,0,9.3,0,38.9,0
[55],0.47,3.8,0,20,25,0,2610,0,1,53.1,0
,0.47,3.7,20,20,25,2336,2610,3.6,1,50,0
,0.47,3.6,50,20,25,2315,2610,3.6,1,45.3,0
,0.47,3.6,75,20,25,2295,2610,3.6,1,44,0
,0.47,3.5,100,20,25,2273,0,3.6,0,41.6,0
[56],0.29,2.9,0,10,10,0,2680,0,2.1,102.1,6.5
,0.29,2.8,20,10,10,2470,2680,3.7,2.1,108,7.4
,0.29,2.8,50,10,10,2470,2680,3.7,2.1,104.8,7.7
,0.29,2.7,100,10,10,2470,0,3.7,0,108.5,6.8
,0.29,2.8,20,10,10,2390,2680,4.9,2.1,102.5,8
,0.29,2.7,50,10,10,2390,2680,4.9,2.1,103.1,6.8
,0.29,2.6,100,10,10,2390,0,4.9,0,100.8,6.3
,0.29,2.8,20,10,10,2300,2680,5.9,2.1,104.3,6.7
,0.29,2.7,50,10,10,2300,2680,5.9,2.1,96.8,6.8
,0.29,2.5,100,10,10,2300,0,5.9,0,91.2,6.5
[57],0.65,4.6,0,20,30,0,2680,0,1.53,18,2.4
,0.65,4.7,25,20,30,2380,2680,6.94,1.53,14.7,2.1
,0.65,4.8,50,20,30,2380,2680,6.94,1.53,14.6,1.9
,0.65,4.8,75,20,30,2380,2680,6.94,1.53,14.2,1.9
,0.72,5.8,0,20,20,0,2680,0,1.53,30.8,2.3
,0.72,5.9,20,20,20,2380,2680,6.94,1.53,26.8,2.7
,0.72,6,40,20,20,2380,2680,6.94,1.53,26.6,2
,0.45,1.9,0,16,20,0,2680,0,1.53,66.9,3.8
,0.45,2.3,20,16,20,2380,2680,6.94,1.53,49.3,2.8
,0.45,2.5,40,16,20,2380,2680,6.94,1.53,40.9,2.7
[58],0.6,3.5,0,16,20,0,2680,0,1.9,42,4.7
,0.6,3.4,20,16,20,2380,2680,6.9,1.9,42.9,4.7
,0.6,3.4,50,16,20,2380,2680,6.9,1.9,42.5,4.7
,0.6,3.2,100,16,20,2380,0,6.9,0,40.9,4.8
,0.5,2.7,0,16,20,0,2680,0,1.9,50.2,5.1
,0.5,2.6,20,16,20,2380,2680,6.9,1.9,51.6,5.1
,0.5,2.5,50,16,20,2380,2680,6.9,1.9,51.6,5.1
,0.5,2.4,100,16,20,2380,0,6.9,0,50.3,5.3
[59],0.5,3.4,0,22,22,0,2670,0,0,46.7,0
,0.5,3.4,50,12,22,2380,2670,0,0,46.9,0
,0.5,3.4,50,22,22,2380,2670,0,0,46.4,0
,0.5,3.4,100,22,22,2380,0,0,0,48.6,0
[60],0.52,2.2,0,19,10,0,2810,0,0.4,29.9,3.6
,0.49,2.1,25,19,10,2500,2810,6.6,0.4,32.6,3.3
[61],0.5,3.5,50,8,20,2330,2750,3.8,0.8,33,0
,0.5,3.2,50,8,20,2280,0,4.1,0,29.1,0
[62],0.68,3.8,0,20,20,0,2600,0,0.9,34.5,0
,0.68,3.6,100,20,20,2450,0,3.1,0,35,0
,0.68,3.4,100,20,20,2370,0,7.1,0,29.2,0
,0.68,3.4,100,20,20,2360,0,7.8,0,27.7,0
,0.51,3.3,0,20,20,0,2600,0,0.9,48.3,0
,0.51,3.1,100,20,20,2450,0,3.1,0,47.6,0
,0.51,3,100,20,20,2370,0,7.1,0,42,0
,0.51,3,100,20,20,2360,0,7.8,0,42.9,0
,0.44,2.5,0,20,20,0,2600,0,0.9,61.6,0
,0.44,2.4,100,20,20,2450,0,3.1,0,60,0
,0.44,2.3,100,20,20,2370,0,7.1,0,53.7,0
,0.44,2.3,100,20,20,2360,0,7.8,0,53.2,0
,0.34,2.2,0,20,20,0,2600,0,0.9,80.8,0
,0.34,2.1,100,20,20,2450,0,3.1,0,78.2,0
,0.34,2,100,20,20,2370,0,7.1,0,71.2,0
,0.34,2,100,20,20,2360,0,7.8,0,65.4,0
[63],0.5,3.1,0,19,19,0,2730,0,0.3,36.5,0
,0.5,3,30,19,19,2570,2730,2.7,0.3,33.6,0
,0.5,3,60,19,19,2570,2730,2.7,0.3,30.4,0
,0.5,2.8,100,19,19,2570,0,2.7,0,29.1,0
[64],0.65,3.1,0,20,19,0,2500,0,1.7,40.5,0
,0.65,3.2,20,20,19,2300,2500,5.2,1.7,39.5,0
,0.65,3.2,50,20,19,2300,2500,5.2,1.7,40.8,0
,0.65,3.2,100,20,19,2300,0,5.2,0,43.7,0
,0.65,3.1,0,20,19,0,2500,0,1.7,40.5,0
,0.65,3.1,20,20,19,2300,2500,5.5,1.7,41,0
,0.65,3.1,50,20,19,2300,2500,5.5,1.7,38.8,0
,0.65,3.2,100,20,19,2300,0,5.5,0,39.9,0
[65],0.42,2.7,0,25,25,0,2570,0,1.1,38.6,10.2
,0.4,2.7,16,25,25,2200,2570,5.4,1.1,32.7,9.7
,0.39,2.2,37,25,25,2200,2570,5.4,1.1,31.7,9
,0.36,2.7,52,25,20,2200,2570,5.4,1.1,29,8.9
[66],0.86,4.6,0,22,20,0,2537,0,1.3,23.9,0
,0.65,3.4,0,22,20,0,2537,0,1.3,38.7,0
,0.41,2.9,0,22,20,0,2537,0,1.3,71.1,0
,0.87,4.6,100,22,20,2451,0,7.8,0,19.7,0
,0.66,3.4,100,22,20,2387,0,6.9,0,35.7,0
,0.42,2.8,100,22,20,2362,0,4.2,0,66.8,0
,0.86,4.6,100,22,20,2456,0,7.5,0,21.8,0
,0.65,3.5,100,22,20,2455,0,6.4,0,36.1,0
,0.42,2.9,100,22,20,2496,0,4.2,0,68.5,0
,0.81,4.9,0,22,20,0,2665,0,1,27.5,0
,0.63,3.6,0,22,20,0,2665,0,1,42.4,0
,0.4,3,0,22,20,0,2665,0,1,72.3,0
,0.84,4.5,100,22,20,2401,0,7.6,0,21,0
,0.63,3.5,100,22,20,2484,0,5.4,0,41.1,0
,0.4,2.8,100,22,20,2363,0,3.6,0,70.2,0
,0.82,4.7,100,22,20,2447,0,6.9,0,23.6,0
,0.64,3.4,100,22,22,2458,0,5.8,0,39.7,0
,0.42,2.9,100,22,22,2464,0,3.9,0,66.5,0
[67],0.64,3,0,19,20,0,2634,0,1.3,33,0
,0.77,3.1,100,19,20,2268,0,4.9,0,27.5,0
,0.7,3.4,100,19,20,1946,0,11.9,0,29.9,0
[68],0.6,3.6,0,19,19,0,2730,0,0.5,47.8,0
,0.59,3.3,20,19,19,2320,2730,5.3,0.5,49.3,0
,0.57,3.3,50,19,19,2320,2730,5.3,0.5,47.5,0
,0.54,3,100,19,19,2320,0,5.3,0,53.7,0
,0.46,2.6,0,19,19,0,2730,0,0.5,62,0
,0.45,2.5,20,19,19,2320,2730,5.3,0.5,64.8,0
,0.44,2.5,50,19,19,2320,2730,5.3,0.5,63.5,0
,0.42,2.3,100,19,19,2320,0,5.3,0,65.1,0
,0.67,3.6,0,19,19,0,2730,0,0.5,62,0
,0.68,3.4,20,19,19,2320,2730,5.3,0.5,64.8,0
,0.67,3,50,19,19,2320,2730,5.3,0.5,63.5,0
,0.7,2.3,100,19,19,2320,0,5.3,0,65.1,0
,0.53,2.7,0,19,19,0,2730,0,0.5,57.3,0
,0.53,2.5,20,19,19,2320,2730,5.3,0.5,54.9,0
,0.53,2.2,50,19,19,2320,2730,5.3,0.5,51.5,0
,0.52,1.8,100,19,19,2320,0,5.3,0,50.3,0
,0.51,3.1,0,19,19,0,2730,0,0.5,60.1,0
,0.52,3.2,20,19,19,2320,2730,5.3,0.5,56.5,0
,0.54,3,50,19,19,2320,2730,5.3,0.5,48.9,0
,0.58,2.8,100,19,19,2320,0,5.3,0,43.1,0
,0.42,2.7,0,19,19,0,2730,0,0.5,72.9,0
,0.42,2.9,20,19,19,2320,2730,5.3,0.5,67.4,0
,0.44,2.7,50,19,19,2320,2730,5.3,0.5,61.2,0
,0.49,2.5,100,19,19,2320,0,5.3,0,53.7,0